Folder: Clark_CME502_Final_Project

Note: README.md
# Clark_CME502_Final_Project
Implementing MCR-AR technique

File: Cu10-20_PAA50_ISS-ISS_twin.nor
# XDI/1.0 Demeter/0.9.26
# Demeter.output_filetype: multicolumn normalized mu(E)
# Element.symbol: Cu
# Element.edge: K
# Column.1: energy eV
# Column.2: Cu-ISS_twin_b17_A3_Cu10_PAA50_merge
# Column.3: Cu-ISS_twin_b17_B4_Cu20_PAA50_merge
# Column.4: Cu-C5_ISS_batch21_A3_Cu10_PAA50_merge
# Column.5: Cu-C7_ISS_batch22_B4_Cu20_PAA50_merge
# Column.6: CuO_standard.001
# Column.7: Cufoil.003
# Column.8: Cu2O_standard.001
# Column.9: Cu(OH)2_standard.001
# Column.10: CuF2_standard.001
#------------------------
#  energy  Cu-ISS_twin_b17_A3_Cu10_PAA50_merge  Cu-ISS_twin_b17_B4_Cu20_PAA50_merge  Cu-C5_ISS_batch21_A3_Cu10_PAA50_merge  Cu-C7_ISS_batch22_B4_Cu20_PAA50_merge  CuO_standard.001  Cufoil.003  Cu2O_standard.001  Cu(OH)2_standard.001  CuF2_standard.001
  8778.06      -0.000149064   0.000410856   0.000525511   0.00041331   0.00861674   0.0050261   0.00455092   0.0099312   0.00503947
  8828.02       4.78961e-05  -0.000173479  -0.000119315  -0.000449953   0.00301231   0.00282087   0.00158172   0.00347484   0.00194127
  8878.02       2.60059e-05  -0.000473846  -0.000424116  -0.000236098  -0.000954789   0.000614131  -0.000534423  -0.000758153  -0.000354746
  8928.03       0.000755757   0.000922085   0.000674185   0.000794261  -0.00137164  -0.00061887  -0.000832934  -0.0019111  -0.0011635
  8953.99       0.00405438   0.00455795   0.00458934   0.00441907   0.000621232   0.00119588   0.00183409   0.00084682   0.000771353
  8964.01       0.00762405   0.00854702   0.00897643   0.00834594   0.00311625   0.00480018   0.00611237   0.00436684   0.00354823
  8969.48       0.0112134   0.0130665   0.0126519   0.0135364   0.0074701   0.0102673   0.0118113   0.00711039   0.00677881
  8971.99       0.0149978   0.0169834   0.0175799   0.0181193   0.0100212   0.0154352   0.0169628   0.00995786   0.00929094
  8974.5       0.0208297   0.0235664   0.0234527   0.0262366   0.0152046   0.026285   0.0271938   0.0134723   0.0134524
  8977       0.0366387   0.0426026   0.0459873   0.0492769   0.0292325   0.062573   0.0543159   0.0282651   0.0267902
  8979.51       0.0688245   0.101315       0.128108       0.164472       0.0461098   0.360226       0.253205       0.0375189   0.0254747
  8982       0.15807       0.23757       0.315541       0.409289       0.130056       0.481761       0.565989       0.0937429   0.0429074
  8984.51       0.269204       0.321031       0.388935       0.441814       0.406416       0.506524       0.503924       0.321438       0.0988395
  8987.01       0.527044       0.552213       0.583885       0.610565       0.443646       0.612613       0.640191       0.44623       0.333051
  8989.5       0.715988       0.728692       0.761941       0.78024       0.690026       0.797984       0.802001       0.661888       0.765802
  8992.01        1.04005        1.02887        1.03135        1.02945        1.02639        1.01134        1.02911        1.02333        1.05967
  8994.51        1.25633        1.21809        1.19874        1.17188        1.18476        1.05389        1.1145        1.20267        1.39501
  8997.01        1.31062        1.26346        1.2341        1.19644        1.33684       0.976404        1.07436        1.3411        1.41182
  8999.51        1.25552        1.20655        1.16954        1.12486        1.25254       0.977785       0.97159        1.2463        1.24614
  9002        1.14385        1.10785        1.08353        1.05414        1.0923        1.07622       0.923384        1.097        1.08435
  9006.02       0.998203       0.990536        1.0013       0.990286       0.951594        1.00635       0.956232       0.949924       0.895425
  9011.43       0.947542       0.956344       0.972644       0.97913       0.956394       0.927856        1.00495       0.938242       0.87859
  9017.32       0.908579       0.916169       0.933572       0.940832       0.923882       0.987174       0.959123       0.890533       0.864519
  9023.67       0.869229       0.877668       0.891095       0.900135       0.821842        1.08732       0.898384       0.819734       0.823516
  9030.52       0.895626       0.897233       0.903201       0.908519       0.836986        1.03605       0.8918       0.844146       0.873016
  9037.8       0.968098       0.962672       0.974783       0.967574       0.95427       0.991695       0.941815       0.951951       0.966955
  9045.6        1.02831        1.0223        1.02644        1.01506        1.04189        1.00938        1.00135        1.02587        1.01075
  9053.87        1.03995        1.03127        1.03654        1.02843        1.04995        1.00409       0.985538        1.03627        1.01859
  9062.58        1.03092        1.02704        1.03021        1.0236        1.00692       0.998533       0.98219        1.01197        1.00862
  9071.8        1.00685        1.00597        1.01573        1.01451       0.980141       0.992645        1.0009       0.985625        1.00281
  9081.49       0.9852       0.986966       0.99883        1.00049       0.969929       0.98645        1.01387       0.968843       0.980113
  9091.65       0.971357       0.972907       0.983518       0.990716       0.965402       0.97996       0.989512       0.963849       0.960947
  9102.31       0.976859       0.975533       0.98724       0.981882       0.965052       0.973153       0.957672       0.968375       0.969365
  9113.42       0.990605       0.986879       0.997913       0.994585       0.968037       0.966056       0.974101       0.976894       0.991622
  9125.01        1.00354        1.0017        1.00844        1.0033       0.991909       0.958652       0.990279       0.998178        1.01006
  9137.09        1.01348        1.016        1.02181        1.01562        1.01857       0.950937        1.00142        1.02055        1.01939
  9149.64        1.01949        1.01478        1.02709        1.01966        1.01778       0.942916        1.00443        1.0236        1.02272
  9162.67        1.00394        1.00246        1.02023        1.01405        1.00317       0.934596       0.996293        1.00868        1.01465
  9176.17       0.998895       0.997788        1.00867        1.00725       0.977011       0.925974        1.00069       0.992021        1.00642
  9190.14       0.993597       0.996637        1.00829        1.00454       0.996339       0.917045        1.00366       0.998725       0.997819
  9204.59       0.99621       0.996198        1.00002        1.0039       0.991386       0.907814       0.999791        1.00034       0.996042
  9219.52       0.997712       0.999864        1.01068        1.00562       0.996955       0.89828       0.992983        1.00492       0.995575
  9234.92        1.00035        1.00338        1.00826        1.00762        1.00288       0.888442       0.99362        1.00874       0.996977
  9250.79        1.00028        1.00138        1.00651        1.00492        1.003       0.878304       0.999039        1.00888       0.997245
  9267.17        1.00227        1.00036        1.0103        1.009        1.0057       0.867841        1.0029        1.00968       0.987015
  9284       0.997694       0.996666        1.00791        1.00613       0.997231       0.857091        1.00296        1.00361       0.974506
  9301.3       0.992821       0.99624        1.00473        1.00294        1.0008       0.846036        1.00162       0.99998       0.962465
  9319.1       0.990626       0.99449        1.00152        1.00243       0.995736       0.834668        1.00004       0.995267       0.949614
  9337.36       0.992153       0.996166        1.00228       0.999769       0.998004       0.823002       0.999319       0.994641       0.936622
  9356.11       0.996056       0.995059       0.995092       0.997392       0.995206       0.811025       0.998919       0.990065       0.922893
  9375.32       0.994933       0.994989       0.997936       0.998709        1.00423       0.798757       0.99851       0.984619       0.908768
  9395.01       0.991707       0.995834       0.99523       0.997799        1.00564       0.786176       0.999346       0.979033       0.894285
  9415.17       0.994135       0.998009        1.00141       0.998299        1.0015       0.7733        1.00046       0.973316       0.87946
  9435.81       0.994286       0.998016       0.997678       0.997288       0.998215       0.760112        1.00146       0.967461       0.864277
  9456.93       0.996704       0.995555       0.995092       0.995048       0.997807       0.746625        1.00142       0.961473       0.84875
  9478.53       0.995774       0.993497       0.99816       0.997245        1.00207       0.732823        1.00047       0.955346       0.83286
  9500.59       0.995333       0.995093       0.99472       0.994871        1.00119       0.71873       0.999712       0.949089       0.816635
  9523.15        1.00102       0.997806       0.990166       0.99203        1.00134       0.70432       0.999805       0.942691       0.800045
  9546.19       0.998596       0.9985       0.988408       0.994188        1.00119       0.689606        1.00003       0.936158       0.783105
  9569.68        1.00817        1.00867       0.998708       0.998632        1.00133       0.674597        1.00016       0.929494       0.765825
  9593.65        1.01165        1.00729       0.995284       0.999505        1.00214       0.659288        1.00054       0.922698       0.7482
  9618.11        1.0114        1.01029       0.994992       0.997547        1.00015       0.643664        1.00055       0.915761       0.730212

File: CuXX_PAA50_and_Cu20_PAA50_NaCl-treatment_and_ISS-twin.nor
# XDI/1.0 Demeter/0.9.26
# Demeter.output_filetype: multicolumn normalized mu(E)
# Element.symbol: Cu
# Element.edge: K
# Column.1: energy eV
# Column.2: Cufoil
# Column.3: Cu20_PAMAM_m
# Column.4: Cu20_PAMAM_NaCl_30mins_m
# Column.5: Cu20_PAMAM_NaCl_60mins_m
# Column.6: Cu20_PAMAM_NaCl_90mins_m
# Column.7: Cu(OH)2_standard
# Column.8: Cu2O_standard
# Column.9: CuF2_standard
# Column.10: CuO_standard
# Column.11: FeTF_Cu5_PAMAM50_m
# Column.12: FeTF_Cu10_PAMAM50_m
# Column.13: FeTF_Cu20_PAMAM50_m
# Column.14: FeTF_Cu40_PAMAM50_m
# Column.15: Cu-ISS_twin_b17_A3_Cu10_PAA50_merge
# Column.16: Cu-ISS_twin_b17_B4_Cu20_PAA50_merge
# Column.17: Cu-C5_ISS_batch21_A3_Cu10_PAA50_merge
# Column.18: Cu-C7_ISS_batch22_B4_Cu20_PAA50_merge
#------------------------
#  energy  Cufoil  Cu20_PAMAM_m  Cu20_PAMAM_NaCl_30mins_m  Cu20_PAMAM_NaCl_60mins_m  Cu20_PAMAM_NaCl_90mins_m  Cu(OH)2_standard  Cu2O_standard  CuF2_standard  CuO_standard  FeTF_Cu5_PAMAM50_m  FeTF_Cu10_PAMAM50_m  FeTF_Cu20_PAMAM50_m  FeTF_Cu40_PAMAM50_m  ISS_twin_Cu10_PAMAM50 ISS_twin_Cu20_PAMAM50 ISS_Cu10_PAMAM50 ISS_Cu20_PAMAM50
  8948.04       0.00126981  -0.00913374  -0.00181926  -0.00209626   0.00232817   0.000612719   0.000791635   9.84064e-05  -0.00089099  -0.00112213   0.000728333   0.000510421   0.000598316   0.00355224   0.00343146   0.00392303   0.00322878
  8956.04      -0.000663625  -0.00859674  -0.000624586  -0.000516371   0.00423402   0.00266966   0.00259534   0.00138782   0.00042712  -0.000146089   0.00206979   0.00205515   0.00234779   0.00511698   0.00553522   0.00544819   0.00504888
  8964.04      -0.000735845  -0.00659645   0.00237769   0.00207602   0.00792017   0.00521988   0.00673448   0.00412063   0.0022934   0.00290224   0.00532393   0.00535906   0.00565077   0.00764189   0.00857128   0.00902024   0.00838146
  8969       0.00203427  -0.00216847   0.00680171   0.00704547   0.0126439   0.00790193   0.0123482   0.00744036   0.00657531   0.00631124   0.00921231   0.00933718   0.010082   0.0115917   0.0122735   0.0115914   0.0129287
  8970.99       0.0049491   0.000223277   0.00918056   0.0105465   0.0160023   0.0104716   0.0164914   0.0094926   0.00856688   0.00855636   0.0115796   0.0122442   0.0132613   0.013747   0.015241   0.0154373   0.0157036
  8972.99       0.0103589   0.00484034   0.0124924   0.0151592   0.0198785   0.0134832   0.0231187   0.0123132   0.01155   0.0124827   0.0154321   0.0165256   0.018197   0.0168056   0.0185594   0.0195597   0.0206548
  8974.99       0.022341   0.0121526   0.0208288   0.0256949   0.0303002   0.0178899   0.0359956   0.0193324   0.01748   0.0174781   0.0219657   0.023725   0.0265556   0.0220018   0.0252146   0.0252525   0.02896
  8977       0.0606845   0.0341826   0.0414967   0.0537321   0.057257   0.0331677   0.0689435   0.0281368   0.0319871   0.0337348   0.038118   0.0425515   0.0489762   0.0366383   0.0426019   0.0459865   0.049276
  8979       0.297948       0.102386       0.119311       0.185625       0.186215       0.0401172   0.255917       0.027807   0.0445007   0.0684262   0.0895844   0.109549       0.149882       0.0550112   0.0792984   0.0940195   0.114181
  8981       0.494783       0.319238       0.285447       0.344427       0.333125       0.0788286   0.644311       0.0410193   0.0978931   0.217797       0.279836       0.324237       0.37641       0.130259       0.206651       0.28206       0.379277
  8983       0.467645       0.335398       0.316665       0.358831       0.34254       0.226185       0.4921       0.0728186   0.293886       0.263055       0.33303       0.374168       0.415404       0.177682       0.245675       0.316927       0.392854
  8984.99       0.538039       0.437491       0.41598       0.45987       0.446406       0.419181       0.581867       0.17054       0.43488       0.341488       0.389275       0.424953       0.465612       0.317438       0.364501       0.424097       0.473855
  8987       0.626114       0.601101       0.569331       0.609199       0.593352       0.499881       0.698881       0.44753       0.469067       0.523895       0.546344       0.570882       0.591317       0.526398       0.551707       0.583381       0.610146
  8989       0.7773       0.740038       0.700512       0.759825       0.733614       0.704135       0.835249       0.834756       0.687897       0.669314       0.675876       0.695691       0.711422       0.676164       0.691856       0.720126       0.740806
  8991       0.962706       0.9339       0.887486       0.951069       0.925727        1.01965        1.02523        1.08558       0.97778       0.849053       0.835924       0.852388       0.865766       0.8911       0.89429       0.926031       0.925791
  8993.01        1.07876        1.13313        1.08569        1.13518        1.10147        1.2259        1.14083        1.39635        1.12282        1.08487        1.04426        1.03802        1.02568        1.15004        1.12851        1.12318        1.10074
  8995.01        1.04485        1.23339        1.15518        1.19388        1.15863        1.34819        1.17129        1.57605        1.26531        1.20854        1.14634        1.13103        1.09214        1.27669        1.23885        1.21829        1.18686
  8997       0.98182        1.25207        1.16774        1.18506        1.14871        1.42834        1.09812        1.5145        1.33416        1.23625        1.1712        1.14829        1.10142        1.31062        1.26349        1.23422        1.19661
  8999       0.9776        1.20226        1.1305        1.15524        1.12368        1.33        1.01402        1.35964        1.25756        1.19607        1.1372        1.11808        1.07333        1.27315        1.22355        1.19053        1.13958
  9001        1.05405        1.13973        1.0855        1.14385        1.11018        1.18996       0.964808        1.20717        1.12724        1.1302        1.07766        1.06892        1.04488        1.19084        1.14923        1.12268        1.08061
  9003        1.09422        1.0738        1.03506        1.11078        1.07736        1.10114       0.965201        1.08981        1.02401        1.04717        1.02246        1.01833        1.01227        1.09845        1.07269        1.05855        1.02881
  9005        1.03457        1.02445       0.987211        1.05188        1.01884        1.01228       0.988729       0.972387       0.964237       0.994004       0.975103       0.979253       0.977772        1.02367        1.0108        1.01352       0.999177
  9007       0.982286        1.00575       0.955553        1.00543       0.977624        1.00364        1.01561       0.955216       0.938437       0.962831       0.950913       0.958858       0.954386       0.984346       0.979688       0.991747       0.987467
  9009       0.942549       0.994241       0.944772       0.98663       0.956082       0.999284        1.04255       0.942405       0.949393       0.94904       0.940278       0.949407       0.943683       0.964354       0.966005       0.985048       0.984431
  9010.99       0.923071       0.990637       0.932619       0.9711       0.943418       0.991004        1.045       0.940568       0.958164       0.940161       0.934198       0.944137       0.935462       0.951503       0.957817       0.975535       0.97992
  9013.01       0.929566       0.979191       0.929724       0.971606       0.942556       0.981583        1.03929       0.942191       0.952876       0.931409       0.927978       0.938346       0.934018       0.940376       0.944805       0.958311       0.971789
  9015.01       0.946822       0.968328       0.922763       0.976967       0.943866       0.963323        1.02722       0.935066       0.941694       0.919573       0.923535       0.930469       0.930505       0.92877       0.932242       0.950149       0.959857
  9017       0.977222       0.956451       0.917292       0.976348       0.947622       0.934538       0.992993       0.917968       0.923353       0.904465       0.907679       0.923221       0.928376       0.910877       0.918676       0.936205       0.944472
  9022.01        1.06083       0.922474       0.904756       0.990736       0.96299       0.870948       0.937828       0.87737       0.836116       0.872976       0.884323       0.904088       0.929358       0.872186       0.883726       0.896105       0.907644
  9030.01        1.02495       0.930351       0.903035       0.985234       0.958781       0.879412       0.922473       0.915921       0.837558       0.877956       0.883834       0.899436       0.922234       0.890395       0.892729       0.897087       0.904444
  9038.02       0.967432       0.987318       0.951426        1.01064       0.979174        1.00034       0.978875        1.01885       0.967104       0.946006       0.938063       0.940736       0.943844       0.970683       0.965102       0.97578       0.969186
  9046.02       0.979244        1.04157       0.997635        1.0451        1.01444        1.07131        1.03496        1.05644        1.0502        1.00271       0.98891       0.988625       0.982968        1.02997        1.02282        1.02811        1.01684